#  P(GPa)    T(K)     n_LS     n_HS
    0.00   4000.00  0.008008  0.991992
    0.10   4000.00  0.008008  0.991992
    0.20   4000.00  0.008008  0.991992
    0.30   4000.00  0.008008  0.991992
    0.40   4000.00  0.008008  0.991992
    0.50   4000.00  0.008008  0.991992
    0.60   4000.00  0.008008  0.991992
    0.70   4000.00  0.008008  0.991992
    0.80   4000.00  0.008008  0.991992
    0.90   4000.00  0.008008  0.991992
    1.00   4000.00  0.008008  0.991992
    1.10   4000.00  0.008008  0.991992
    1.20   4000.00  0.008008  0.991992
    1.30   4000.00  0.008008  0.991992
    1.40   4000.00  0.008008  0.991992
    1.50   4000.00  0.008008  0.991992
    1.60   4000.00  0.008008  0.991992
    1.70   4000.00  0.008008  0.991992
    1.80   4000.00  0.008008  0.991992
    1.90   4000.00  0.008008  0.991992
    2.00   4000.00  0.008008  0.991992
    2.10   4000.00  0.008008  0.991992
    2.20   4000.00  0.008008  0.991992
    2.30   4000.00  0.008008  0.991992
    2.40   4000.00  0.008008  0.991992
    2.50   4000.00  0.008008  0.991992
    2.60   4000.00  0.008008  0.991992
    2.70   4000.00  0.008008  0.991992
    2.80   4000.00  0.008008  0.991992
    2.90   4000.00  0.008008  0.991992
    3.00   4000.00  0.008008  0.991992
    3.10   4000.00  0.008008  0.991992
    3.20   4000.00  0.008008  0.991992
    3.30   4000.00  0.008008  0.991992
    3.40   4000.00  0.008008  0.991992
    3.50   4000.00  0.008008  0.991992
    3.60   4000.00  0.008008  0.991992
    3.70   4000.00  0.008008  0.991992
    3.80   4000.00  0.008008  0.991992
    3.90   4000.00  0.008008  0.991992
    4.00   4000.00  0.008008  0.991992
    4.10   4000.00  0.008008  0.991992
    4.20   4000.00  0.008008  0.991992
    4.30   4000.00  0.008008  0.991992
    4.40   4000.00  0.008008  0.991992
    4.50   4000.00  0.008008  0.991992
    4.60   4000.00  0.008008  0.991992
    4.70   4000.00  0.008008  0.991992
    4.80   4000.00  0.008008  0.991992
    4.90   4000.00  0.008008  0.991992
    5.00   4000.00  0.008008  0.991992
    5.10   4000.00  0.008008  0.991992
    5.20   4000.00  0.008008  0.991992
    5.30   4000.00  0.008008  0.991992
    5.40   4000.00  0.008008  0.991992
    5.50   4000.00  0.008008  0.991992
    5.60   4000.00  0.008008  0.991992
    5.70   4000.00  0.008008  0.991992
    5.80   4000.00  0.008008  0.991992
    5.90   4000.00  0.008008  0.991992
    6.00   4000.00  0.008008  0.991992
    6.10   4000.00  0.008008  0.991992
    6.20   4000.00  0.008008  0.991992
    6.30   4000.00  0.008008  0.991992
    6.40   4000.00  0.008008  0.991992
    6.50   4000.00  0.008008  0.991992
    6.60   4000.00  0.008008  0.991992
    6.70   4000.00  0.008008  0.991992
    6.80   4000.00  0.008008  0.991992
    6.90   4000.00  0.008008  0.991992
    7.00   4000.00  0.008008  0.991992
    7.10   4000.00  0.008008  0.991992
    7.20   4000.00  0.008008  0.991992
    7.30   4000.00  0.008008  0.991992
    7.40   4000.00  0.008008  0.991992
    7.50   4000.00  0.008008  0.991992
    7.60   4000.00  0.009009  0.990991
    7.70   4000.00  0.009009  0.990991
    7.80   4000.00  0.009009  0.990991
    7.90   4000.00  0.009009  0.990991
    8.00   4000.00  0.009009  0.990991
    8.10   4000.00  0.009009  0.990991
    8.20   4000.00  0.009009  0.990991
    8.30   4000.00  0.009009  0.990991
    8.40   4000.00  0.009009  0.990991
    8.50   4000.00  0.009009  0.990991
    8.60   4000.00  0.009009  0.990991
    8.70   4000.00  0.009009  0.990991
    8.80   4000.00  0.009009  0.990991
    8.90   4000.00  0.009009  0.990991
    9.00   4000.00  0.009009  0.990991
    9.10   4000.00  0.009009  0.990991
    9.20   4000.00  0.009009  0.990991
    9.30   4000.00  0.009009  0.990991
    9.40   4000.00  0.009009  0.990991
    9.50   4000.00  0.009009  0.990991
    9.60   4000.00  0.009009  0.990991
    9.70   4000.00  0.009009  0.990991
    9.80   4000.00  0.009009  0.990991
    9.90   4000.00  0.009009  0.990991
   10.00   4000.00  0.009009  0.990991
   10.10   4000.00  0.009009  0.990991
   10.20   4000.00  0.009009  0.990991
   10.30   4000.00  0.009009  0.990991
   10.40   4000.00  0.009009  0.990991
   10.50   4000.00  0.009009  0.990991
   10.60   4000.00  0.009009  0.990991
   10.70   4000.00  0.009009  0.990991
   10.80   4000.00  0.009009  0.990991
   10.90   4000.00  0.009009  0.990991
   11.00   4000.00  0.009009  0.990991
   11.10   4000.00  0.009009  0.990991
   11.20   4000.00  0.009009  0.990991
   11.30   4000.00  0.009009  0.990991
   11.40   4000.00  0.009009  0.990991
   11.50   4000.00  0.009009  0.990991
   11.60   4000.00  0.009009  0.990991
   11.70   4000.00  0.009009  0.990991
   11.80   4000.00  0.009009  0.990991
   11.90   4000.00  0.009009  0.990991
   12.00   4000.00  0.009009  0.990991
   12.10   4000.00  0.009009  0.990991
   12.20   4000.00  0.009009  0.990991
   12.30   4000.00  0.009009  0.990991
   12.40   4000.00  0.009009  0.990991
   12.50   4000.00  0.009009  0.990991
   12.60   4000.00  0.009009  0.990991
   12.70   4000.00  0.009009  0.990991
   12.80   4000.00  0.009009  0.990991
   12.90   4000.00  0.009009  0.990991
   13.00   4000.00  0.009009  0.990991
   13.10   4000.00  0.009009  0.990991
   13.20   4000.00  0.009009  0.990991
   13.30   4000.00  0.009009  0.990991
   13.40   4000.00  0.009009  0.990991
   13.50   4000.00  0.009009  0.990991
   13.60   4000.00  0.009009  0.990991
   13.70   4000.00  0.009009  0.990991
   13.80   4000.00  0.009009  0.990991
   13.90   4000.00  0.009009  0.990991
   14.00   4000.00  0.009009  0.990991
   14.10   4000.00  0.009009  0.990991
   14.20   4000.00  0.009009  0.990991
   14.30   4000.00  0.009009  0.990991
   14.40   4000.00  0.009009  0.990991
   14.50   4000.00  0.009009  0.990991
   14.60   4000.00  0.009009  0.990991
   14.70   4000.00  0.010010  0.989990
   14.80   4000.00  0.010010  0.989990
   14.90   4000.00  0.010010  0.989990
   15.00   4000.00  0.010010  0.989990
   15.10   4000.00  0.010010  0.989990
   15.20   4000.00  0.010010  0.989990
   15.30   4000.00  0.010010  0.989990
   15.40   4000.00  0.010010  0.989990
   15.50   4000.00  0.010010  0.989990
   15.60   4000.00  0.010010  0.989990
   15.70   4000.00  0.010010  0.989990
   15.80   4000.00  0.010010  0.989990
   15.90   4000.00  0.010010  0.989990
   16.00   4000.00  0.010010  0.989990
   16.10   4000.00  0.010010  0.989990
   16.20   4000.00  0.010010  0.989990
   16.30   4000.00  0.010010  0.989990
   16.40   4000.00  0.010010  0.989990
   16.50   4000.00  0.010010  0.989990
   16.60   4000.00  0.010010  0.989990
   16.70   4000.00  0.010010  0.989990
   16.80   4000.00  0.010010  0.989990
   16.90   4000.00  0.010010  0.989990
   17.00   4000.00  0.010010  0.989990
   17.10   4000.00  0.010010  0.989990
   17.20   4000.00  0.010010  0.989990
   17.30   4000.00  0.010010  0.989990
   17.40   4000.00  0.010010  0.989990
   17.50   4000.00  0.010010  0.989990
   17.60   4000.00  0.010010  0.989990
   17.70   4000.00  0.010010  0.989990
   17.80   4000.00  0.010010  0.989990
   17.90   4000.00  0.010010  0.989990
   18.00   4000.00  0.010010  0.989990
   18.10   4000.00  0.010010  0.989990
   18.20   4000.00  0.010010  0.989990
   18.30   4000.00  0.010010  0.989990
   18.40   4000.00  0.010010  0.989990
   18.50   4000.00  0.010010  0.989990
   18.60   4000.00  0.010010  0.989990
   18.70   4000.00  0.010010  0.989990
   18.80   4000.00  0.010010  0.989990
   18.90   4000.00  0.010010  0.989990
   19.00   4000.00  0.010010  0.989990
   19.10   4000.00  0.010010  0.989990
   19.20   4000.00  0.010010  0.989990
   19.30   4000.00  0.010010  0.989990
   19.40   4000.00  0.010010  0.989990
   19.50   4000.00  0.010010  0.989990
   19.60   4000.00  0.010010  0.989990
   19.70   4000.00  0.011011  0.988989
   19.80   4000.00  0.011011  0.988989
   19.90   4000.00  0.011011  0.988989
   20.00   4000.00  0.011011  0.988989
   20.10   4000.00  0.011011  0.988989
   20.20   4000.00  0.011011  0.988989
   20.30   4000.00  0.011011  0.988989
   20.40   4000.00  0.011011  0.988989
   20.50   4000.00  0.011011  0.988989
   20.60   4000.00  0.011011  0.988989
   20.70   4000.00  0.011011  0.988989
   20.80   4000.00  0.011011  0.988989
   20.90   4000.00  0.011011  0.988989
   21.00   4000.00  0.011011  0.988989
   21.10   4000.00  0.011011  0.988989
   21.20   4000.00  0.011011  0.988989
   21.30   4000.00  0.011011  0.988989
   21.40   4000.00  0.011011  0.988989
   21.50   4000.00  0.011011  0.988989
   21.60   4000.00  0.011011  0.988989
   21.70   4000.00  0.011011  0.988989
   21.80   4000.00  0.011011  0.988989
   21.90   4000.00  0.011011  0.988989
   22.00   4000.00  0.011011  0.988989
   22.10   4000.00  0.011011  0.988989
   22.20   4000.00  0.011011  0.988989
   22.30   4000.00  0.011011  0.988989
   22.40   4000.00  0.011011  0.988989
   22.50   4000.00  0.011011  0.988989
   22.60   4000.00  0.011011  0.988989
   22.70   4000.00  0.011011  0.988989
   22.80   4000.00  0.011011  0.988989
   22.90   4000.00  0.011011  0.988989
   23.00   4000.00  0.011011  0.988989
   23.10   4000.00  0.011011  0.988989
   23.20   4000.00  0.011011  0.988989
   23.30   4000.00  0.011011  0.988989
   23.40   4000.00  0.011011  0.988989
   23.50   4000.00  0.011011  0.988989
   23.60   4000.00  0.012012  0.987988
   23.70   4000.00  0.012012  0.987988
   23.80   4000.00  0.012012  0.987988
   23.90   4000.00  0.012012  0.987988
   24.00   4000.00  0.012012  0.987988
   24.10   4000.00  0.012012  0.987988
   24.20   4000.00  0.012012  0.987988
   24.30   4000.00  0.012012  0.987988
   24.40   4000.00  0.012012  0.987988
   24.50   4000.00  0.012012  0.987988
   24.60   4000.00  0.012012  0.987988
   24.70   4000.00  0.012012  0.987988
   24.80   4000.00  0.012012  0.987988
   24.90   4000.00  0.012012  0.987988
   25.00   4000.00  0.012012  0.987988
   25.10   4000.00  0.012012  0.987988
   25.20   4000.00  0.012012  0.987988
   25.30   4000.00  0.012012  0.987988
   25.40   4000.00  0.012012  0.987988
   25.50   4000.00  0.012012  0.987988
   25.60   4000.00  0.012012  0.987988
   25.70   4000.00  0.012012  0.987988
   25.80   4000.00  0.012012  0.987988
   25.90   4000.00  0.012012  0.987988
   26.00   4000.00  0.012012  0.987988
   26.10   4000.00  0.012012  0.987988
   26.20   4000.00  0.012012  0.987988
   26.30   4000.00  0.012012  0.987988
   26.40   4000.00  0.012012  0.987988
   26.50   4000.00  0.012012  0.987988
   26.60   4000.00  0.012012  0.987988
   26.70   4000.00  0.012012  0.987988
   26.80   4000.00  0.012012  0.987988
   26.90   4000.00  0.013013  0.986987
   27.00   4000.00  0.013013  0.986987
   27.10   4000.00  0.013013  0.986987
   27.20   4000.00  0.013013  0.986987
   27.30   4000.00  0.013013  0.986987
   27.40   4000.00  0.013013  0.986987
   27.50   4000.00  0.013013  0.986987
   27.60   4000.00  0.013013  0.986987
   27.70   4000.00  0.013013  0.986987
   27.80   4000.00  0.013013  0.986987
   27.90   4000.00  0.013013  0.986987
   28.00   4000.00  0.013013  0.986987
   28.10   4000.00  0.013013  0.986987
   28.20   4000.00  0.013013  0.986987
   28.30   4000.00  0.013013  0.986987
   28.40   4000.00  0.013013  0.986987
   28.50   4000.00  0.013013  0.986987
   28.60   4000.00  0.013013  0.986987
   28.70   4000.00  0.013013  0.986987
   28.80   4000.00  0.013013  0.986987
   28.90   4000.00  0.013013  0.986987
   29.00   4000.00  0.013013  0.986987
   29.10   4000.00  0.013013  0.986987
   29.20   4000.00  0.013013  0.986987
   29.30   4000.00  0.013013  0.986987
   29.40   4000.00  0.013013  0.986987
   29.50   4000.00  0.013013  0.986987
   29.60   4000.00  0.013013  0.986987
   29.70   4000.00  0.014014  0.985986
   29.80   4000.00  0.014014  0.985986
   29.90   4000.00  0.014014  0.985986
   30.00   4000.00  0.014014  0.985986
   30.10   4000.00  0.014014  0.985986
   30.20   4000.00  0.014014  0.985986
   30.30   4000.00  0.014014  0.985986
   30.40   4000.00  0.014014  0.985986
   30.50   4000.00  0.014014  0.985986
   30.60   4000.00  0.014014  0.985986
   30.70   4000.00  0.014014  0.985986
   30.80   4000.00  0.014014  0.985986
   30.90   4000.00  0.014014  0.985986
   31.00   4000.00  0.014014  0.985986
   31.10   4000.00  0.014014  0.985986
   31.20   4000.00  0.014014  0.985986
   31.30   4000.00  0.014014  0.985986
   31.40   4000.00  0.014014  0.985986
   31.50   4000.00  0.014014  0.985986
   31.60   4000.00  0.014014  0.985986
   31.70   4000.00  0.014014  0.985986
   31.80   4000.00  0.014014  0.985986
   31.90   4000.00  0.014014  0.985986
   32.00   4000.00  0.014014  0.985986
   32.10   4000.00  0.014014  0.985986
   32.20   4000.00  0.015015  0.984985
   32.30   4000.00  0.015015  0.984985
   32.40   4000.00  0.015015  0.984985
   32.50   4000.00  0.015015  0.984985
   32.60   4000.00  0.015015  0.984985
   32.70   4000.00  0.015015  0.984985
   32.80   4000.00  0.015015  0.984985
   32.90   4000.00  0.015015  0.984985
   33.00   4000.00  0.015015  0.984985
   33.10   4000.00  0.015015  0.984985
   33.20   4000.00  0.015015  0.984985
   33.30   4000.00  0.015015  0.984985
   33.40   4000.00  0.015015  0.984985
   33.50   4000.00  0.015015  0.984985
   33.60   4000.00  0.015015  0.984985
   33.70   4000.00  0.015015  0.984985
   33.80   4000.00  0.015015  0.984985
   33.90   4000.00  0.015015  0.984985
   34.00   4000.00  0.015015  0.984985
   34.10   4000.00  0.015015  0.984985
   34.20   4000.00  0.015015  0.984985
   34.30   4000.00  0.015015  0.984985
   34.40   4000.00  0.015015  0.984985
   34.50   4000.00  0.016016  0.983984
   34.60   4000.00  0.016016  0.983984
   34.70   4000.00  0.016016  0.983984
   34.80   4000.00  0.016016  0.983984
   34.90   4000.00  0.016016  0.983984
   35.00   4000.00  0.016016  0.983984
   35.10   4000.00  0.016016  0.983984
   35.20   4000.00  0.016016  0.983984
   35.30   4000.00  0.016016  0.983984
   35.40   4000.00  0.016016  0.983984
   35.50   4000.00  0.016016  0.983984
   35.60   4000.00  0.016016  0.983984
   35.70   4000.00  0.016016  0.983984
   35.80   4000.00  0.016016  0.983984
   35.90   4000.00  0.016016  0.983984
   36.00   4000.00  0.016016  0.983984
   36.10   4000.00  0.016016  0.983984
   36.20   4000.00  0.016016  0.983984
   36.30   4000.00  0.016016  0.983984
   36.40   4000.00  0.016016  0.983984
   36.50   4000.00  0.017017  0.982983
   36.60   4000.00  0.017017  0.982983
   36.70   4000.00  0.017017  0.982983
   36.80   4000.00  0.017017  0.982983
   36.90   4000.00  0.017017  0.982983
   37.00   4000.00  0.017017  0.982983
   37.10   4000.00  0.017017  0.982983
   37.20   4000.00  0.017017  0.982983
   37.30   4000.00  0.017017  0.982983
   37.40   4000.00  0.017017  0.982983
   37.50   4000.00  0.017017  0.982983
   37.60   4000.00  0.017017  0.982983
   37.70   4000.00  0.017017  0.982983
   37.80   4000.00  0.017017  0.982983
   37.90   4000.00  0.017017  0.982983
   38.00   4000.00  0.017017  0.982983
   38.10   4000.00  0.017017  0.982983
   38.20   4000.00  0.017017  0.982983
   38.30   4000.00  0.017017  0.982983
   38.40   4000.00  0.018018  0.981982
   38.50   4000.00  0.018018  0.981982
   38.60   4000.00  0.018018  0.981982
   38.70   4000.00  0.018018  0.981982
   38.80   4000.00  0.018018  0.981982
   38.90   4000.00  0.018018  0.981982
   39.00   4000.00  0.018018  0.981982
   39.10   4000.00  0.018018  0.981982
   39.20   4000.00  0.018018  0.981982
   39.30   4000.00  0.018018  0.981982
   39.40   4000.00  0.018018  0.981982
   39.50   4000.00  0.018018  0.981982
   39.60   4000.00  0.018018  0.981982
   39.70   4000.00  0.018018  0.981982
   39.80   4000.00  0.018018  0.981982
   39.90   4000.00  0.018018  0.981982
   40.00   4000.00  0.018018  0.981982
   40.10   4000.00  0.019019  0.980981
   40.20   4000.00  0.019019  0.980981
   40.30   4000.00  0.019019  0.980981
   40.40   4000.00  0.019019  0.980981
   40.50   4000.00  0.019019  0.980981
   40.60   4000.00  0.019019  0.980981
   40.70   4000.00  0.019019  0.980981
   40.80   4000.00  0.019019  0.980981
   40.90   4000.00  0.019019  0.980981
   41.00   4000.00  0.019019  0.980981
   41.10   4000.00  0.019019  0.980981
   41.20   4000.00  0.019019  0.980981
   41.30   4000.00  0.019019  0.980981
   41.40   4000.00  0.019019  0.980981
   41.50   4000.00  0.019019  0.980981
   41.60   4000.00  0.019019  0.980981
   41.70   4000.00  0.020020  0.979980
   41.80   4000.00  0.020020  0.979980
   41.90   4000.00  0.020020  0.979980
   42.00   4000.00  0.020020  0.979980
   42.10   4000.00  0.020020  0.979980
   42.20   4000.00  0.020020  0.979980
   42.30   4000.00  0.020020  0.979980
   42.40   4000.00  0.020020  0.979980
   42.50   4000.00  0.020020  0.979980
   42.60   4000.00  0.020020  0.979980
   42.70   4000.00  0.020020  0.979980
   42.80   4000.00  0.020020  0.979980
   42.90   4000.00  0.020020  0.979980
   43.00   4000.00  0.020020  0.979980
   43.10   4000.00  0.020020  0.979980
   43.20   4000.00  0.021021  0.978979
   43.30   4000.00  0.021021  0.978979
   43.40   4000.00  0.021021  0.978979
   43.50   4000.00  0.021021  0.978979
   43.60   4000.00  0.021021  0.978979
   43.70   4000.00  0.021021  0.978979
   43.80   4000.00  0.021021  0.978979
   43.90   4000.00  0.021021  0.978979
   44.00   4000.00  0.021021  0.978979
   44.10   4000.00  0.021021  0.978979
   44.20   4000.00  0.021021  0.978979
   44.30   4000.00  0.021021  0.978979
   44.40   4000.00  0.021021  0.978979
   44.50   4000.00  0.021021  0.978979
   44.60   4000.00  0.022022  0.977978
   44.70   4000.00  0.022022  0.977978
   44.80   4000.00  0.022022  0.977978
   44.90   4000.00  0.022022  0.977978
   45.00   4000.00  0.022022  0.977978
   45.10   4000.00  0.022022  0.977978
   45.20   4000.00  0.022022  0.977978
   45.30   4000.00  0.022022  0.977978
   45.40   4000.00  0.022022  0.977978
   45.50   4000.00  0.022022  0.977978
   45.60   4000.00  0.022022  0.977978
   45.70   4000.00  0.022022  0.977978
   45.80   4000.00  0.022022  0.977978
   45.90   4000.00  0.023023  0.976977
   46.00   4000.00  0.023023  0.976977
   46.10   4000.00  0.023023  0.976977
   46.20   4000.00  0.023023  0.976977
   46.30   4000.00  0.023023  0.976977
   46.40   4000.00  0.023023  0.976977
   46.50   4000.00  0.023023  0.976977
   46.60   4000.00  0.023023  0.976977
   46.70   4000.00  0.023023  0.976977
   46.80   4000.00  0.023023  0.976977
   46.90   4000.00  0.023023  0.976977
   47.00   4000.00  0.023023  0.976977
   47.10   4000.00  0.023023  0.976977
   47.20   4000.00  0.024024  0.975976
   47.30   4000.00  0.024024  0.975976
   47.40   4000.00  0.024024  0.975976
   47.50   4000.00  0.024024  0.975976
   47.60   4000.00  0.024024  0.975976
   47.70   4000.00  0.024024  0.975976
   47.80   4000.00  0.024024  0.975976
   47.90   4000.00  0.024024  0.975976
   48.00   4000.00  0.024024  0.975976
   48.10   4000.00  0.024024  0.975976
   48.20   4000.00  0.024024  0.975976
   48.30   4000.00  0.025025  0.974975
   48.40   4000.00  0.025025  0.974975
   48.50   4000.00  0.025025  0.974975
   48.60   4000.00  0.025025  0.974975
   48.70   4000.00  0.025025  0.974975
   48.80   4000.00  0.025025  0.974975
   48.90   4000.00  0.025025  0.974975
   49.00   4000.00  0.025025  0.974975
   49.10   4000.00  0.025025  0.974975
   49.20   4000.00  0.025025  0.974975
   49.30   4000.00  0.025025  0.974975
   49.40   4000.00  0.026026  0.973974
   49.50   4000.00  0.026026  0.973974
   49.60   4000.00  0.026026  0.973974
   49.70   4000.00  0.026026  0.973974
   49.80   4000.00  0.026026  0.973974
   49.90   4000.00  0.026026  0.973974
   50.00   4000.00  0.026026  0.973974
   50.10   4000.00  0.026026  0.973974
   50.20   4000.00  0.026026  0.973974
   50.30   4000.00  0.026026  0.973974
   50.40   4000.00  0.026026  0.973974
   50.50   4000.00  0.027027  0.972973
   50.60   4000.00  0.027027  0.972973
   50.70   4000.00  0.027027  0.972973
   50.80   4000.00  0.027027  0.972973
   50.90   4000.00  0.027027  0.972973
   51.00   4000.00  0.027027  0.972973
   51.10   4000.00  0.027027  0.972973
   51.20   4000.00  0.027027  0.972973
   51.30   4000.00  0.027027  0.972973
   51.40   4000.00  0.027027  0.972973
   51.50   4000.00  0.028028  0.971972
   51.60   4000.00  0.028028  0.971972
   51.70   4000.00  0.028028  0.971972
   51.80   4000.00  0.028028  0.971972
   51.90   4000.00  0.028028  0.971972
   52.00   4000.00  0.028028  0.971972
   52.10   4000.00  0.028028  0.971972
   52.20   4000.00  0.028028  0.971972
   52.30   4000.00  0.028028  0.971972
   52.40   4000.00  0.028028  0.971972
   52.50   4000.00  0.029029  0.970971
   52.60   4000.00  0.029029  0.970971
   52.70   4000.00  0.029029  0.970971
   52.80   4000.00  0.029029  0.970971
   52.90   4000.00  0.029029  0.970971
   53.00   4000.00  0.029029  0.970971
   53.10   4000.00  0.029029  0.970971
   53.20   4000.00  0.029029  0.970971
   53.30   4000.00  0.029029  0.970971
   53.40   4000.00  0.030030  0.969970
   53.50   4000.00  0.030030  0.969970
   53.60   4000.00  0.030030  0.969970
   53.70   4000.00  0.030030  0.969970
   53.80   4000.00  0.030030  0.969970
   53.90   4000.00  0.030030  0.969970
   54.00   4000.00  0.030030  0.969970
   54.10   4000.00  0.030030  0.969970
   54.20   4000.00  0.030030  0.969970
   54.30   4000.00  0.031031  0.968969
   54.40   4000.00  0.031031  0.968969
   54.50   4000.00  0.031031  0.968969
   54.60   4000.00  0.031031  0.968969
   54.70   4000.00  0.031031  0.968969
   54.80   4000.00  0.031031  0.968969
   54.90   4000.00  0.031031  0.968969
   55.00   4000.00  0.031031  0.968969
   55.10   4000.00  0.032032  0.967968
   55.20   4000.00  0.032032  0.967968
   55.30   4000.00  0.032032  0.967968
   55.40   4000.00  0.032032  0.967968
   55.50   4000.00  0.032032  0.967968
   55.60   4000.00  0.032032  0.967968
   55.70   4000.00  0.032032  0.967968
   55.80   4000.00  0.032032  0.967968
   55.90   4000.00  0.033033  0.966967
   56.00   4000.00  0.033033  0.966967
   56.10   4000.00  0.033033  0.966967
   56.20   4000.00  0.033033  0.966967
   56.30   4000.00  0.033033  0.966967
   56.40   4000.00  0.033033  0.966967
   56.50   4000.00  0.033033  0.966967
   56.60   4000.00  0.033033  0.966967
   56.70   4000.00  0.034034  0.965966
   56.80   4000.00  0.034034  0.965966
   56.90   4000.00  0.034034  0.965966
   57.00   4000.00  0.034034  0.965966
   57.10   4000.00  0.034034  0.965966
   57.20   4000.00  0.034034  0.965966
   57.30   4000.00  0.034034  0.965966
   57.40   4000.00  0.034034  0.965966
   57.50   4000.00  0.035035  0.964965
   57.60   4000.00  0.035035  0.964965
   57.70   4000.00  0.035035  0.964965
   57.80   4000.00  0.035035  0.964965
   57.90   4000.00  0.035035  0.964965
   58.00   4000.00  0.035035  0.964965
   58.10   4000.00  0.035035  0.964965
   58.20   4000.00  0.036036  0.963964
   58.30   4000.00  0.036036  0.963964
   58.40   4000.00  0.036036  0.963964
   58.50   4000.00  0.036036  0.963964
   58.60   4000.00  0.036036  0.963964
   58.70   4000.00  0.036036  0.963964
   58.80   4000.00  0.036036  0.963964
   58.90   4000.00  0.037037  0.962963
   59.00   4000.00  0.037037  0.962963
   59.10   4000.00  0.037037  0.962963
   59.20   4000.00  0.037037  0.962963
   59.30   4000.00  0.037037  0.962963
   59.40   4000.00  0.037037  0.962963
   59.50   4000.00  0.037037  0.962963
   59.60   4000.00  0.038038  0.961962
   59.70   4000.00  0.038038  0.961962
   59.80   4000.00  0.038038  0.961962
   59.90   4000.00  0.038038  0.961962
   60.00   4000.00  0.038038  0.961962
   60.10   4000.00  0.038038  0.961962
   60.20   4000.00  0.038038  0.961962
   60.30   4000.00  0.039039  0.960961
   60.40   4000.00  0.039039  0.960961
   60.50   4000.00  0.039039  0.960961
   60.60   4000.00  0.039039  0.960961
   60.70   4000.00  0.039039  0.960961
   60.80   4000.00  0.039039  0.960961
   60.90   4000.00  0.040040  0.959960
   61.00   4000.00  0.040040  0.959960
   61.10   4000.00  0.040040  0.959960
   61.20   4000.00  0.040040  0.959960
   61.30   4000.00  0.040040  0.959960
   61.40   4000.00  0.040040  0.959960
   61.50   4000.00  0.041041  0.958959
   61.60   4000.00  0.041041  0.958959
   61.70   4000.00  0.041041  0.958959
   61.80   4000.00  0.041041  0.958959
   61.90   4000.00  0.041041  0.958959
   62.00   4000.00  0.041041  0.958959
   62.10   4000.00  0.042042  0.957958
   62.20   4000.00  0.042042  0.957958
   62.30   4000.00  0.042042  0.957958
   62.40   4000.00  0.042042  0.957958
   62.50   4000.00  0.042042  0.957958
   62.60   4000.00  0.042042  0.957958
   62.70   4000.00  0.043043  0.956957
   62.80   4000.00  0.043043  0.956957
   62.90   4000.00  0.043043  0.956957
   63.00   4000.00  0.043043  0.956957
   63.10   4000.00  0.043043  0.956957
   63.20   4000.00  0.043043  0.956957
   63.30   4000.00  0.044044  0.955956
   63.40   4000.00  0.044044  0.955956
   63.50   4000.00  0.044044  0.955956
   63.60   4000.00  0.044044  0.955956
   63.70   4000.00  0.044044  0.955956
   63.80   4000.00  0.044044  0.955956
   63.90   4000.00  0.045045  0.954955
   64.00   4000.00  0.045045  0.954955
   64.10   4000.00  0.045045  0.954955
   64.20   4000.00  0.045045  0.954955
   64.30   4000.00  0.045045  0.954955
   64.40   4000.00  0.046046  0.953954
   64.50   4000.00  0.046046  0.953954
   64.60   4000.00  0.046046  0.953954
   64.70   4000.00  0.046046  0.953954
   64.80   4000.00  0.046046  0.953954
   64.90   4000.00  0.047047  0.952953
   65.00   4000.00  0.047047  0.952953
   65.10   4000.00  0.047047  0.952953
   65.20   4000.00  0.047047  0.952953
   65.30   4000.00  0.047047  0.952953
   65.40   4000.00  0.047047  0.952953
   65.50   4000.00  0.048048  0.951952
   65.60   4000.00  0.048048  0.951952
   65.70   4000.00  0.048048  0.951952
   65.80   4000.00  0.048048  0.951952
   65.90   4000.00  0.048048  0.951952
   66.00   4000.00  0.049049  0.950951
   66.10   4000.00  0.049049  0.950951
   66.20   4000.00  0.049049  0.950951
   66.30   4000.00  0.049049  0.950951
   66.40   4000.00  0.049049  0.950951
   66.50   4000.00  0.050050  0.949950
   66.60   4000.00  0.050050  0.949950
   66.70   4000.00  0.050050  0.949950
   66.80   4000.00  0.050050  0.949950
   66.90   4000.00  0.051051  0.948949
   67.00   4000.00  0.051051  0.948949
   67.10   4000.00  0.051051  0.948949
   67.20   4000.00  0.051051  0.948949
   67.30   4000.00  0.051051  0.948949
   67.40   4000.00  0.052052  0.947948
   67.50   4000.00  0.052052  0.947948
   67.60   4000.00  0.052052  0.947948
   67.70   4000.00  0.052052  0.947948
   67.80   4000.00  0.052052  0.947948
   67.90   4000.00  0.053053  0.946947
   68.00   4000.00  0.053053  0.946947
   68.10   4000.00  0.053053  0.946947
   68.20   4000.00  0.053053  0.946947
   68.30   4000.00  0.054054  0.945946
   68.40   4000.00  0.054054  0.945946
   68.50   4000.00  0.054054  0.945946
   68.60   4000.00  0.054054  0.945946
   68.70   4000.00  0.054054  0.945946
   68.80   4000.00  0.055055  0.944945
   68.90   4000.00  0.055055  0.944945
   69.00   4000.00  0.055055  0.944945
   69.10   4000.00  0.055055  0.944945
   69.20   4000.00  0.056056  0.943944
   69.30   4000.00  0.056056  0.943944
   69.40   4000.00  0.056056  0.943944
   69.50   4000.00  0.056056  0.943944
   69.60   4000.00  0.057057  0.942943
   69.70   4000.00  0.057057  0.942943
   69.80   4000.00  0.057057  0.942943
   69.90   4000.00  0.057057  0.942943
   70.00   4000.00  0.057057  0.942943
   70.10   4000.00  0.058058  0.941942
   70.20   4000.00  0.058058  0.941942
   70.30   4000.00  0.058058  0.941942
   70.40   4000.00  0.058058  0.941942
   70.50   4000.00  0.059059  0.940941
   70.60   4000.00  0.059059  0.940941
   70.70   4000.00  0.059059  0.940941
   70.80   4000.00  0.059059  0.940941
   70.90   4000.00  0.060060  0.939940
   71.00   4000.00  0.060060  0.939940
   71.10   4000.00  0.060060  0.939940
   71.20   4000.00  0.060060  0.939940
   71.30   4000.00  0.061061  0.938939
   71.40   4000.00  0.061061  0.938939
   71.50   4000.00  0.061061  0.938939
   71.60   4000.00  0.062062  0.937938
   71.70   4000.00  0.062062  0.937938
   71.80   4000.00  0.062062  0.937938
   71.90   4000.00  0.062062  0.937938
   72.00   4000.00  0.063063  0.936937
   72.10   4000.00  0.063063  0.936937
   72.20   4000.00  0.063063  0.936937
   72.30   4000.00  0.063063  0.936937
   72.40   4000.00  0.064064  0.935936
   72.50   4000.00  0.064064  0.935936
   72.60   4000.00  0.064064  0.935936
   72.70   4000.00  0.064064  0.935936
   72.80   4000.00  0.065065  0.934935
   72.90   4000.00  0.065065  0.934935
   73.00   4000.00  0.065065  0.934935
   73.10   4000.00  0.066066  0.933934
   73.20   4000.00  0.066066  0.933934
   73.30   4000.00  0.066066  0.933934
   73.40   4000.00  0.066066  0.933934
   73.50   4000.00  0.067067  0.932933
   73.60   4000.00  0.067067  0.932933
   73.70   4000.00  0.067067  0.932933
   73.80   4000.00  0.068068  0.931932
   73.90   4000.00  0.068068  0.931932
   74.00   4000.00  0.068068  0.931932
   74.10   4000.00  0.068068  0.931932
   74.20   4000.00  0.069069  0.930931
   74.30   4000.00  0.069069  0.930931
   74.40   4000.00  0.069069  0.930931
   74.50   4000.00  0.070070  0.929930
   74.60   4000.00  0.070070  0.929930
   74.70   4000.00  0.070070  0.929930
   74.80   4000.00  0.071071  0.928929
   74.90   4000.00  0.071071  0.928929
   75.00   4000.00  0.071071  0.928929
   75.10   4000.00  0.071071  0.928929
   75.20   4000.00  0.072072  0.927928
   75.30   4000.00  0.072072  0.927928
   75.40   4000.00  0.072072  0.927928
   75.50   4000.00  0.073073  0.926927
   75.60   4000.00  0.073073  0.926927
   75.70   4000.00  0.073073  0.926927
   75.80   4000.00  0.074074  0.925926
   75.90   4000.00  0.074074  0.925926
   76.00   4000.00  0.074074  0.925926
   76.10   4000.00  0.075075  0.924925
   76.20   4000.00  0.075075  0.924925
   76.30   4000.00  0.075075  0.924925
   76.40   4000.00  0.076076  0.923924
   76.50   4000.00  0.076076  0.923924
   76.60   4000.00  0.076076  0.923924
   76.70   4000.00  0.077077  0.922923
   76.80   4000.00  0.077077  0.922923
   76.90   4000.00  0.077077  0.922923
   77.00   4000.00  0.078078  0.921922
   77.10   4000.00  0.078078  0.921922
   77.20   4000.00  0.078078  0.921922
   77.30   4000.00  0.079079  0.920921
   77.40   4000.00  0.079079  0.920921
   77.50   4000.00  0.079079  0.920921
   77.60   4000.00  0.080080  0.919920
   77.70   4000.00  0.080080  0.919920
   77.80   4000.00  0.080080  0.919920
   77.90   4000.00  0.081081  0.918919
   78.00   4000.00  0.081081  0.918919
   78.10   4000.00  0.081081  0.918919
   78.20   4000.00  0.082082  0.917918
   78.30   4000.00  0.082082  0.917918
   78.40   4000.00  0.082082  0.917918
   78.50   4000.00  0.083083  0.916917
   78.60   4000.00  0.083083  0.916917
   78.70   4000.00  0.084084  0.915916
   78.80   4000.00  0.084084  0.915916
   78.90   4000.00  0.084084  0.915916
   79.00   4000.00  0.085085  0.914915
   79.10   4000.00  0.085085  0.914915
   79.20   4000.00  0.085085  0.914915
   79.30   4000.00  0.086086  0.913914
   79.40   4000.00  0.086086  0.913914
   79.50   4000.00  0.086086  0.913914
   79.60   4000.00  0.087087  0.912913
   79.70   4000.00  0.087087  0.912913
   79.80   4000.00  0.088088  0.911912
   79.90   4000.00  0.088088  0.911912
   80.00   4000.00  0.088088  0.911912
   80.10   4000.00  0.089089  0.910911
   80.20   4000.00  0.089089  0.910911
   80.30   4000.00  0.090090  0.909910
   80.40   4000.00  0.090090  0.909910
   80.50   4000.00  0.090090  0.909910
   80.60   4000.00  0.091091  0.908909
   80.70   4000.00  0.091091  0.908909
   80.80   4000.00  0.092092  0.907908
   80.90   4000.00  0.092092  0.907908
   81.00   4000.00  0.092092  0.907908
   81.10   4000.00  0.093093  0.906907
   81.20   4000.00  0.093093  0.906907
   81.30   4000.00  0.094094  0.905906
   81.40   4000.00  0.094094  0.905906
   81.50   4000.00  0.094094  0.905906
   81.60   4000.00  0.095095  0.904905
   81.70   4000.00  0.095095  0.904905
   81.80   4000.00  0.096096  0.903904
   81.90   4000.00  0.096096  0.903904
   82.00   4000.00  0.096096  0.903904
   82.10   4000.00  0.097097  0.902903
   82.20   4000.00  0.097097  0.902903
   82.30   4000.00  0.098098  0.901902
   82.40   4000.00  0.098098  0.901902
   82.50   4000.00  0.099099  0.900901
   82.60   4000.00  0.099099  0.900901
   82.70   4000.00  0.099099  0.900901
   82.80   4000.00  0.100100  0.899900
   82.90   4000.00  0.100100  0.899900
   83.00   4000.00  0.101101  0.898899
   83.10   4000.00  0.101101  0.898899
   83.20   4000.00  0.102102  0.897898
   83.30   4000.00  0.102102  0.897898
   83.40   4000.00  0.103103  0.896897
   83.50   4000.00  0.103103  0.896897
   83.60   4000.00  0.104104  0.895896
   83.70   4000.00  0.104104  0.895896
   83.80   4000.00  0.104104  0.895896
   83.90   4000.00  0.105105  0.894895
   84.00   4000.00  0.105105  0.894895
   84.10   4000.00  0.106106  0.893894
   84.20   4000.00  0.106106  0.893894
   84.30   4000.00  0.107107  0.892893
   84.40   4000.00  0.107107  0.892893
   84.50   4000.00  0.108108  0.891892
   84.60   4000.00  0.108108  0.891892
   84.70   4000.00  0.109109  0.890891
   84.80   4000.00  0.109109  0.890891
   84.90   4000.00  0.110110  0.889890
   85.00   4000.00  0.110110  0.889890
   85.10   4000.00  0.111111  0.888889
   85.20   4000.00  0.111111  0.888889
   85.30   4000.00  0.112112  0.887888
   85.40   4000.00  0.112112  0.887888
   85.50   4000.00  0.113113  0.886887
   85.60   4000.00  0.113113  0.886887
   85.70   4000.00  0.114114  0.885886
   85.80   4000.00  0.114114  0.885886
   85.90   4000.00  0.115115  0.884885
   86.00   4000.00  0.115115  0.884885
   86.10   4000.00  0.116116  0.883884
   86.20   4000.00  0.116116  0.883884
   86.30   4000.00  0.117117  0.882883
   86.40   4000.00  0.117117  0.882883
   86.50   4000.00  0.118118  0.881882
   86.60   4000.00  0.118118  0.881882
   86.70   4000.00  0.119119  0.880881
   86.80   4000.00  0.119119  0.880881
   86.90   4000.00  0.120120  0.879880
   87.00   4000.00  0.120120  0.879880
   87.10   4000.00  0.121121  0.878879
   87.20   4000.00  0.121121  0.878879
   87.30   4000.00  0.122122  0.877878
   87.40   4000.00  0.122122  0.877878
   87.50   4000.00  0.123123  0.876877
   87.60   4000.00  0.123123  0.876877
   87.70   4000.00  0.124124  0.875876
   87.80   4000.00  0.125125  0.874875
   87.90   4000.00  0.125125  0.874875
   88.00   4000.00  0.126126  0.873874
   88.10   4000.00  0.126126  0.873874
   88.20   4000.00  0.127127  0.872873
   88.30   4000.00  0.127127  0.872873
   88.40   4000.00  0.128128  0.871872
   88.50   4000.00  0.128128  0.871872
   88.60   4000.00  0.129129  0.870871
   88.70   4000.00  0.130130  0.869870
   88.80   4000.00  0.130130  0.869870
   88.90   4000.00  0.131131  0.868869
   89.00   4000.00  0.131131  0.868869
   89.10   4000.00  0.132132  0.867868
   89.20   4000.00  0.132132  0.867868
   89.30   4000.00  0.133133  0.866867
   89.40   4000.00  0.134134  0.865866
   89.50   4000.00  0.134134  0.865866
   89.60   4000.00  0.135135  0.864865
   89.70   4000.00  0.135135  0.864865
   89.80   4000.00  0.136136  0.863864
   89.90   4000.00  0.137137  0.862863
   90.00   4000.00  0.137137  0.862863
   90.10   4000.00  0.138138  0.861862
   90.20   4000.00  0.138138  0.861862
   90.30   4000.00  0.139139  0.860861
   90.40   4000.00  0.140140  0.859860
   90.50   4000.00  0.140140  0.859860
   90.60   4000.00  0.141141  0.858859
   90.70   4000.00  0.141141  0.858859
   90.80   4000.00  0.142142  0.857858
   90.90   4000.00  0.143143  0.856857
   91.00   4000.00  0.143143  0.856857
   91.10   4000.00  0.144144  0.855856
   91.20   4000.00  0.145145  0.854855
   91.30   4000.00  0.145145  0.854855
   91.40   4000.00  0.146146  0.853854
   91.50   4000.00  0.147147  0.852853
   91.60   4000.00  0.147147  0.852853
   91.70   4000.00  0.148148  0.851852
   91.80   4000.00  0.148148  0.851852
   91.90   4000.00  0.149149  0.850851
   92.00   4000.00  0.150150  0.849850
   92.10   4000.00  0.150150  0.849850
   92.20   4000.00  0.151151  0.848849
   92.30   4000.00  0.152152  0.847848
   92.40   4000.00  0.152152  0.847848
   92.50   4000.00  0.153153  0.846847
   92.60   4000.00  0.154154  0.845846
   92.70   4000.00  0.154154  0.845846
   92.80   4000.00  0.155155  0.844845
   92.90   4000.00  0.156156  0.843844
   93.00   4000.00  0.157157  0.842843
   93.10   4000.00  0.157157  0.842843
   93.20   4000.00  0.158158  0.841842
   93.30   4000.00  0.159159  0.840841
   93.40   4000.00  0.159159  0.840841
   93.50   4000.00  0.160160  0.839840
   93.60   4000.00  0.161161  0.838839
   93.70   4000.00  0.161161  0.838839
   93.80   4000.00  0.162162  0.837838
   93.90   4000.00  0.163163  0.836837
   94.00   4000.00  0.163163  0.836837
   94.10   4000.00  0.164164  0.835836
   94.20   4000.00  0.165165  0.834835
   94.30   4000.00  0.166166  0.833834
   94.40   4000.00  0.166166  0.833834
   94.50   4000.00  0.167167  0.832833
   94.60   4000.00  0.168168  0.831832
   94.70   4000.00  0.169169  0.830831
   94.80   4000.00  0.169169  0.830831
   94.90   4000.00  0.170170  0.829830
   95.00   4000.00  0.171171  0.828829
   95.10   4000.00  0.172172  0.827828
   95.20   4000.00  0.172172  0.827828
   95.30   4000.00  0.173173  0.826827
   95.40   4000.00  0.174174  0.825826
   95.50   4000.00  0.175175  0.824825
   95.60   4000.00  0.175175  0.824825
   95.70   4000.00  0.176176  0.823824
   95.80   4000.00  0.177177  0.822823
   95.90   4000.00  0.178178  0.821822
   96.00   4000.00  0.178178  0.821822
   96.10   4000.00  0.179179  0.820821
   96.20   4000.00  0.180180  0.819820
   96.30   4000.00  0.181181  0.818819
   96.40   4000.00  0.181181  0.818819
   96.50   4000.00  0.182182  0.817818
   96.60   4000.00  0.183183  0.816817
   96.70   4000.00  0.184184  0.815816
   96.80   4000.00  0.185185  0.814815
   96.90   4000.00  0.185185  0.814815
   97.00   4000.00  0.186186  0.813814
   97.10   4000.00  0.187187  0.812813
   97.20   4000.00  0.188188  0.811812
   97.30   4000.00  0.189189  0.810811
   97.40   4000.00  0.189189  0.810811
   97.50   4000.00  0.190190  0.809810
   97.60   4000.00  0.191191  0.808809
   97.70   4000.00  0.192192  0.807808
   97.80   4000.00  0.193193  0.806807
   97.90   4000.00  0.194194  0.805806
   98.00   4000.00  0.194194  0.805806
   98.10   4000.00  0.195195  0.804805
   98.20   4000.00  0.196196  0.803804
   98.30   4000.00  0.197197  0.802803
   98.40   4000.00  0.198198  0.801802
   98.50   4000.00  0.199199  0.800801
   98.60   4000.00  0.199199  0.800801
   98.70   4000.00  0.200200  0.799800
   98.80   4000.00  0.201201  0.798799
   98.90   4000.00  0.202202  0.797798
   99.00   4000.00  0.203203  0.796797
   99.10   4000.00  0.204204  0.795796
   99.20   4000.00  0.205205  0.794795
   99.30   4000.00  0.206206  0.793794
   99.40   4000.00  0.206206  0.793794
   99.50   4000.00  0.207207  0.792793
   99.60   4000.00  0.208208  0.791792
   99.70   4000.00  0.209209  0.790791
   99.80   4000.00  0.210210  0.789790
   99.90   4000.00  0.211211  0.788789
  100.00   4000.00  0.212212  0.787788
  100.10   4000.00  0.213213  0.786787
  100.20   4000.00  0.214214  0.785786
  100.30   4000.00  0.214214  0.785786
  100.40   4000.00  0.215215  0.784785
  100.50   4000.00  0.216216  0.783784
  100.60   4000.00  0.217217  0.782783
  100.70   4000.00  0.218218  0.781782
  100.80   4000.00  0.219219  0.780781
  100.90   4000.00  0.220220  0.779780
  101.00   4000.00  0.221221  0.778779
  101.10   4000.00  0.222222  0.777778
  101.20   4000.00  0.223223  0.776777
  101.30   4000.00  0.224224  0.775776
  101.40   4000.00  0.225225  0.774775
  101.50   4000.00  0.226226  0.773774
  101.60   4000.00  0.227227  0.772773
  101.70   4000.00  0.227227  0.772773
  101.80   4000.00  0.228228  0.771772
  101.90   4000.00  0.229229  0.770771
  102.00   4000.00  0.230230  0.769770
  102.10   4000.00  0.231231  0.768769
  102.20   4000.00  0.232232  0.767768
  102.30   4000.00  0.233233  0.766767
  102.40   4000.00  0.234234  0.765766
  102.50   4000.00  0.235235  0.764765
  102.60   4000.00  0.236236  0.763764
  102.70   4000.00  0.237237  0.762763
  102.80   4000.00  0.238238  0.761762
  102.90   4000.00  0.239239  0.760761
  103.00   4000.00  0.240240  0.759760
  103.10   4000.00  0.241241  0.758759
  103.20   4000.00  0.242242  0.757758
  103.30   4000.00  0.243243  0.756757
  103.40   4000.00  0.244244  0.755756
  103.50   4000.00  0.245245  0.754755
  103.60   4000.00  0.246246  0.753754
  103.70   4000.00  0.247247  0.752753
  103.80   4000.00  0.248248  0.751752
  103.90   4000.00  0.249249  0.750751
  104.00   4000.00  0.250250  0.749750
  104.10   4000.00  0.251251  0.748749
  104.20   4000.00  0.252252  0.747748
  104.30   4000.00  0.253253  0.746747
  104.40   4000.00  0.254254  0.745746
  104.50   4000.00  0.256256  0.743744
  104.60   4000.00  0.257257  0.742743
  104.70   4000.00  0.258258  0.741742
  104.80   4000.00  0.259259  0.740741
  104.90   4000.00  0.260260  0.739740
  105.00   4000.00  0.261261  0.738739
  105.10   4000.00  0.262262  0.737738
  105.20   4000.00  0.263263  0.736737
  105.30   4000.00  0.264264  0.735736
  105.40   4000.00  0.265265  0.734735
  105.50   4000.00  0.266266  0.733734
  105.60   4000.00  0.267267  0.732733
  105.70   4000.00  0.268268  0.731732
  105.80   4000.00  0.269269  0.730731
  105.90   4000.00  0.271271  0.728729
  106.00   4000.00  0.272272  0.727728
  106.10   4000.00  0.273273  0.726727
  106.20   4000.00  0.274274  0.725726
  106.30   4000.00  0.275275  0.724725
  106.40   4000.00  0.276276  0.723724
  106.50   4000.00  0.277277  0.722723
  106.60   4000.00  0.278278  0.721722
  106.70   4000.00  0.279279  0.720721
  106.80   4000.00  0.280280  0.719720
  106.90   4000.00  0.282282  0.717718
  107.00   4000.00  0.283283  0.716717
  107.10   4000.00  0.284284  0.715716
  107.20   4000.00  0.285285  0.714715
  107.30   4000.00  0.286286  0.713714
  107.40   4000.00  0.287287  0.712713
  107.50   4000.00  0.288288  0.711712
  107.60   4000.00  0.290290  0.709710
  107.70   4000.00  0.291291  0.708709
  107.80   4000.00  0.292292  0.707708
  107.90   4000.00  0.293293  0.706707
  108.00   4000.00  0.294294  0.705706
  108.10   4000.00  0.295295  0.704705
  108.20   4000.00  0.297297  0.702703
  108.30   4000.00  0.298298  0.701702
  108.40   4000.00  0.299299  0.700701
  108.50   4000.00  0.300300  0.699700
  108.60   4000.00  0.301301  0.698699
  108.70   4000.00  0.302302  0.697698
  108.80   4000.00  0.304304  0.695696
  108.90   4000.00  0.305305  0.694695
  109.00   4000.00  0.306306  0.693694
  109.10   4000.00  0.307307  0.692693
  109.20   4000.00  0.308308  0.691692
  109.30   4000.00  0.310310  0.689690
  109.40   4000.00  0.311311  0.688689
  109.50   4000.00  0.312312  0.687688
  109.60   4000.00  0.313313  0.686687
  109.70   4000.00  0.314314  0.685686
  109.80   4000.00  0.316316  0.683684
  109.90   4000.00  0.317317  0.682683
  110.00   4000.00  0.318318  0.681682
  110.10   4000.00  0.319319  0.680681
  110.20   4000.00  0.321321  0.678679
  110.30   4000.00  0.322322  0.677678
  110.40   4000.00  0.323323  0.676677
  110.50   4000.00  0.324324  0.675676
  110.60   4000.00  0.326326  0.673674
  110.70   4000.00  0.327327  0.672673
  110.80   4000.00  0.328328  0.671672
  110.90   4000.00  0.329329  0.670671
  111.00   4000.00  0.331331  0.668669
  111.10   4000.00  0.332332  0.667668
  111.20   4000.00  0.333333  0.666667
  111.30   4000.00  0.334334  0.665666
  111.40   4000.00  0.336336  0.663664
  111.50   4000.00  0.337337  0.662663
  111.60   4000.00  0.338338  0.661662
  111.70   4000.00  0.339339  0.660661
  111.80   4000.00  0.341341  0.658659
  111.90   4000.00  0.342342  0.657658
  112.00   4000.00  0.343343  0.656657
  112.10   4000.00  0.345345  0.654655
  112.20   4000.00  0.346346  0.653654
  112.30   4000.00  0.347347  0.652653
  112.40   4000.00  0.348348  0.651652
  112.50   4000.00  0.350350  0.649650
  112.60   4000.00  0.351351  0.648649
  112.70   4000.00  0.352352  0.647648
  112.80   4000.00  0.354354  0.645646
  112.90   4000.00  0.355355  0.644645
  113.00   4000.00  0.356356  0.643644
  113.10   4000.00  0.358358  0.641642
  113.20   4000.00  0.359359  0.640641
  113.30   4000.00  0.360360  0.639640
  113.40   4000.00  0.362362  0.637638
  113.50   4000.00  0.363363  0.636637
  113.60   4000.00  0.364364  0.635636
  113.70   4000.00  0.366366  0.633634
  113.80   4000.00  0.367367  0.632633
  113.90   4000.00  0.368368  0.631632
  114.00   4000.00  0.370370  0.629630
  114.10   4000.00  0.371371  0.628629
  114.20   4000.00  0.372372  0.627628
  114.30   4000.00  0.374374  0.625626
  114.40   4000.00  0.375375  0.624625
  114.50   4000.00  0.376376  0.623624
  114.60   4000.00  0.378378  0.621622
  114.70   4000.00  0.379379  0.620621
  114.80   4000.00  0.380380  0.619620
  114.90   4000.00  0.382382  0.617618
  115.00   4000.00  0.383383  0.616617
  115.10   4000.00  0.384384  0.615616
  115.20   4000.00  0.386386  0.613614
  115.30   4000.00  0.387387  0.612613
  115.40   4000.00  0.389389  0.610611
  115.50   4000.00  0.390390  0.609610
  115.60   4000.00  0.391391  0.608609
  115.70   4000.00  0.393393  0.606607
  115.80   4000.00  0.394394  0.605606
  115.90   4000.00  0.396396  0.603604
  116.00   4000.00  0.397397  0.602603
  116.10   4000.00  0.398398  0.601602
  116.20   4000.00  0.400400  0.599600
  116.30   4000.00  0.401401  0.598599
  116.40   4000.00  0.403403  0.596597
  116.50   4000.00  0.404404  0.595596
  116.60   4000.00  0.405405  0.594595
  116.70   4000.00  0.407407  0.592593
  116.80   4000.00  0.408408  0.591592
  116.90   4000.00  0.410410  0.589590
  117.00   4000.00  0.411411  0.588589
  117.10   4000.00  0.412412  0.587588
  117.20   4000.00  0.414414  0.585586
  117.30   4000.00  0.415415  0.584585
  117.40   4000.00  0.417417  0.582583
  117.50   4000.00  0.418418  0.581582
  117.60   4000.00  0.419419  0.580581
  117.70   4000.00  0.421421  0.578579
  117.80   4000.00  0.422422  0.577578
  117.90   4000.00  0.424424  0.575576
  118.00   4000.00  0.425425  0.574575
  118.10   4000.00  0.427427  0.572573
  118.20   4000.00  0.428428  0.571572
  118.30   4000.00  0.429429  0.570571
  118.40   4000.00  0.431431  0.568569
  118.50   4000.00  0.432432  0.567568
  118.60   4000.00  0.434434  0.565566
  118.70   4000.00  0.435435  0.564565
  118.80   4000.00  0.437437  0.562563
  118.90   4000.00  0.438438  0.561562
  119.00   4000.00  0.440440  0.559560
  119.10   4000.00  0.441441  0.558559
  119.20   4000.00  0.443443  0.556557
  119.30   4000.00  0.444444  0.555556
  119.40   4000.00  0.445445  0.554555
  119.50   4000.00  0.447447  0.552553
  119.60   4000.00  0.448448  0.551552
  119.70   4000.00  0.450450  0.549550
  119.80   4000.00  0.451451  0.548549
  119.90   4000.00  0.453453  0.546547
  120.00   4000.00  0.454454  0.545546
  120.10   4000.00  0.456456  0.543544
  120.20   4000.00  0.457457  0.542543
  120.30   4000.00  0.459459  0.540541
  120.40   4000.00  0.460460  0.539540
  120.50   4000.00  0.462462  0.537538
  120.60   4000.00  0.463463  0.536537
  120.70   4000.00  0.464464  0.535536
  120.80   4000.00  0.466466  0.533534
  120.90   4000.00  0.467467  0.532533
  121.00   4000.00  0.469469  0.530531
  121.10   4000.00  0.470470  0.529530
  121.20   4000.00  0.472472  0.527528
  121.30   4000.00  0.473473  0.526527
  121.40   4000.00  0.475475  0.524525
  121.50   4000.00  0.476476  0.523524
  121.60   4000.00  0.478478  0.521522
  121.70   4000.00  0.479479  0.520521
  121.80   4000.00  0.481481  0.518519
  121.90   4000.00  0.482482  0.517518
  122.00   4000.00  0.484484  0.515516
  122.10   4000.00  0.485485  0.514515
  122.20   4000.00  0.487487  0.512513
  122.30   4000.00  0.488488  0.511512
  122.40   4000.00  0.490490  0.509510
  122.50   4000.00  0.491491  0.508509
  122.60   4000.00  0.493493  0.506507
  122.70   4000.00  0.494494  0.505506
  122.80   4000.00  0.496496  0.503504
  122.90   4000.00  0.497497  0.502503
  123.00   4000.00  0.499499  0.500501
  123.10   4000.00  0.500501  0.499499
  123.20   4000.00  0.502503  0.497497
  123.30   4000.00  0.503504  0.496496
  123.40   4000.00  0.505506  0.494494
  123.50   4000.00  0.506507  0.493493
  123.60   4000.00  0.508509  0.491491
  123.70   4000.00  0.509510  0.490490
  123.80   4000.00  0.511512  0.488488
  123.90   4000.00  0.512513  0.487487
  124.00   4000.00  0.514515  0.485485
  124.10   4000.00  0.515516  0.484484
  124.20   4000.00  0.517518  0.482482
  124.30   4000.00  0.518519  0.481481
  124.40   4000.00  0.520521  0.479479
  124.50   4000.00  0.521522  0.478478
  124.60   4000.00  0.523524  0.476476
  124.70   4000.00  0.524525  0.475475
  124.80   4000.00  0.526527  0.473473
  124.90   4000.00  0.527528  0.472472
  125.00   4000.00  0.529530  0.470470
  125.10   4000.00  0.530531  0.469469
  125.20   4000.00  0.532533  0.467467
  125.30   4000.00  0.533534  0.466466
  125.40   4000.00  0.535536  0.464464
  125.50   4000.00  0.536537  0.463463
  125.60   4000.00  0.538539  0.461461
  125.70   4000.00  0.539540  0.460460
  125.80   4000.00  0.541542  0.458458
  125.90   4000.00  0.542543  0.457457
  126.00   4000.00  0.544545  0.455455
  126.10   4000.00  0.545546  0.454454
  126.20   4000.00  0.547548  0.452452
  126.30   4000.00  0.548549  0.451451
  126.40   4000.00  0.550551  0.449449
  126.50   4000.00  0.551552  0.448448
  126.60   4000.00  0.553554  0.446446
  126.70   4000.00  0.554555  0.445445
  126.80   4000.00  0.556557  0.443443
  126.90   4000.00  0.557558  0.442442
  127.00   4000.00  0.559560  0.440440
  127.10   4000.00  0.560561  0.439439
  127.20   4000.00  0.562563  0.437437
  127.30   4000.00  0.563564  0.436436
  127.40   4000.00  0.565566  0.434434
  127.50   4000.00  0.566567  0.433433
  127.60   4000.00  0.568569  0.431431
  127.70   4000.00  0.569570  0.430430
  127.80   4000.00  0.571572  0.428428
  127.90   4000.00  0.572573  0.427427
  128.00   4000.00  0.574575  0.425425
  128.10   4000.00  0.575576  0.424424
  128.20   4000.00  0.577578  0.422422
  128.30   4000.00  0.578579  0.421421
  128.40   4000.00  0.580581  0.419419
  128.50   4000.00  0.581582  0.418418
  128.60   4000.00  0.583584  0.416416
  128.70   4000.00  0.584585  0.415415
  128.80   4000.00  0.586587  0.413413
  128.90   4000.00  0.587588  0.412412
  129.00   4000.00  0.589590  0.410410
  129.10   4000.00  0.590591  0.409409
  129.20   4000.00  0.592593  0.407407
  129.30   4000.00  0.593594  0.406406
  129.40   4000.00  0.595596  0.404404
  129.50   4000.00  0.596597  0.403403
  129.60   4000.00  0.598599  0.401401
  129.70   4000.00  0.599600  0.400400
  129.80   4000.00  0.601602  0.398398
  129.90   4000.00  0.602603  0.397397
  130.00   4000.00  0.604605  0.395395
  130.10   4000.00  0.605606  0.394394
  130.20   4000.00  0.607608  0.392392
  130.30   4000.00  0.608609  0.391391
  130.40   4000.00  0.609610  0.390390
  130.50   4000.00  0.611612  0.388388
  130.60   4000.00  0.612613  0.387387
  130.70   4000.00  0.614615  0.385385
  130.80   4000.00  0.615616  0.384384
  130.90   4000.00  0.617618  0.382382
  131.00   4000.00  0.618619  0.381381
  131.10   4000.00  0.620621  0.379379
  131.20   4000.00  0.621622  0.378378
  131.30   4000.00  0.623624  0.376376
  131.40   4000.00  0.624625  0.375375
  131.50   4000.00  0.626627  0.373373
  131.60   4000.00  0.627628  0.372372
  131.70   4000.00  0.628629  0.371371
  131.80   4000.00  0.630631  0.369369
  131.90   4000.00  0.631632  0.368368
  132.00   4000.00  0.633634  0.366366
  132.10   4000.00  0.634635  0.365365
  132.20   4000.00  0.636637  0.363363
  132.30   4000.00  0.637638  0.362362
  132.40   4000.00  0.639640  0.360360
  132.50   4000.00  0.640641  0.359359
  132.60   4000.00  0.641642  0.358358
  132.70   4000.00  0.643644  0.356356
  132.80   4000.00  0.644645  0.355355
  132.90   4000.00  0.646647  0.353353
  133.00   4000.00  0.647648  0.352352
  133.10   4000.00  0.649650  0.350350
  133.20   4000.00  0.650651  0.349349
  133.30   4000.00  0.651652  0.348348
  133.40   4000.00  0.653654  0.346346
  133.50   4000.00  0.654655  0.345345
  133.60   4000.00  0.656657  0.343343
  133.70   4000.00  0.657658  0.342342
  133.80   4000.00  0.658659  0.341341
  133.90   4000.00  0.660661  0.339339
  134.00   4000.00  0.661662  0.338338
  134.10   4000.00  0.663664  0.336336
  134.20   4000.00  0.664665  0.335335
  134.30   4000.00  0.665666  0.334334
  134.40   4000.00  0.667668  0.332332
  134.50   4000.00  0.668669  0.331331
  134.60   4000.00  0.670671  0.329329
  134.70   4000.00  0.671672  0.328328
  134.80   4000.00  0.672673  0.327327
  134.90   4000.00  0.674675  0.325325
  135.00   4000.00  0.675676  0.324324
  135.10   4000.00  0.677678  0.322322
  135.20   4000.00  0.678679  0.321321
  135.30   4000.00  0.679680  0.320320
  135.40   4000.00  0.681682  0.318318
  135.50   4000.00  0.682683  0.317317
  135.60   4000.00  0.683684  0.316316
  135.70   4000.00  0.685686  0.314314
  135.80   4000.00  0.686687  0.313313
  135.90   4000.00  0.687688  0.312312
  136.00   4000.00  0.689690  0.310310
  136.10   4000.00  0.690691  0.309309
  136.20   4000.00  0.691692  0.308308
  136.30   4000.00  0.693694  0.306306
  136.40   4000.00  0.694695  0.305305
  136.50   4000.00  0.696697  0.303303
  136.60   4000.00  0.697698  0.302302
  136.70   4000.00  0.698699  0.301301
  136.80   4000.00  0.700701  0.299299
  136.90   4000.00  0.701702  0.298298
  137.00   4000.00  0.702703  0.297297
  137.10   4000.00  0.704705  0.295295
  137.20   4000.00  0.705706  0.294294
  137.30   4000.00  0.706707  0.293293
  137.40   4000.00  0.707708  0.292292
  137.50   4000.00  0.709710  0.290290
  137.60   4000.00  0.710711  0.289289
  137.70   4000.00  0.711712  0.288288
  137.80   4000.00  0.713714  0.286286
  137.90   4000.00  0.714715  0.285285
  138.00   4000.00  0.715716  0.284284
  138.10   4000.00  0.717718  0.282282
  138.20   4000.00  0.718719  0.281281
  138.30   4000.00  0.719720  0.280280
  138.40   4000.00  0.720721  0.279279
  138.50   4000.00  0.722723  0.277277
  138.60   4000.00  0.723724  0.276276
  138.70   4000.00  0.724725  0.275275
  138.80   4000.00  0.726727  0.273273
  138.90   4000.00  0.727728  0.272272
  139.00   4000.00  0.728729  0.271271
  139.10   4000.00  0.729730  0.270270
  139.20   4000.00  0.731732  0.268268
  139.30   4000.00  0.732733  0.267267
  139.40   4000.00  0.733734  0.266266
  139.50   4000.00  0.734735  0.265265
  139.60   4000.00  0.736737  0.263263
  139.70   4000.00  0.737738  0.262262
  139.80   4000.00  0.738739  0.261261
  139.90   4000.00  0.739740  0.260260
  140.00   4000.00  0.741742  0.258258
